word,color,congruent,corrAns,trials.thisRepN,trials.thisTrialN,trials.thisN,trials.thisIndex,instrText.started,instrText.stopped,key_resp.keys,key_resp.rt,key_resp.started,key_resp.stopped,target.started,target.stopped,response.keys,response.corr,response.rt,response.started,response.stopped,participant,session,date,expName,psychopyVersion,frameRate,
,,,,,,,,12.930176900001243,None,down,2.2976089000003412,12.930176900001243,None,,,,,,,,Kyle,001,2022-06-16_19h44.54.961,stroopExperiment,2022.1.4,60.00492040601222,
blue ,red,0,left,0,0,0,5,,,,,,,15.749717800004873,None,left,1,1.5575945000018692,15.749717800004873,None,Kyle,001,2022-06-16_19h44.54.961,stroopExperiment,2022.1.4,60.00492040601222,
green,blue,0,right,0,1,1,3,,,,,,,17.81930210000428,21.822524800008978,right,1,4.01607499999227,17.81930210000428,None,Kyle,001,2022-06-16_19h44.54.961,stroopExperiment,2022.1.4,60.00492040601222,
green,green,1,down,0,2,2,2,,,,,,,22.339622600004077,None,down,1,1.7123011000076076,22.339622600004077,None,Kyle,001,2022-06-16_19h44.54.961,stroopExperiment,2022.1.4,60.00492040601222,
red,green,0,down,0,3,3,1,,,,,,,24.558527900007903,None,down,1,0.9807287000003271,24.558527900007903,None,Kyle,001,2022-06-16_19h44.54.961,stroopExperiment,2022.1.4,60.00492040601222,
blue,blue,1,right,0,4,4,4,,,,,,,26.043328500003554,None,right,1,0.9683236999990186,26.043328500003554,None,Kyle,001,2022-06-16_19h44.54.961,stroopExperiment,2022.1.4,60.00492040601222,
red,red,1,left,0,5,5,0,,,,,,,27.528135100001236,None,left,1,1.8831190000055358,27.528135100001236,None,Kyle,001,2022-06-16_19h44.54.961,stroopExperiment,2022.1.4,60.00492040601222,
green,blue,0,right,1,0,6,3,,,,,,,29.913899500010302,None,right,1,1.0097059999970952,29.913899500010302,None,Kyle,001,2022-06-16_19h44.54.961,stroopExperiment,2022.1.4,60.00492040601222,
blue ,red,0,left,1,1,7,5,,,,,,,31.432064000007813,None,left,1,0.6518466000125045,31.432064000007813,None,Kyle,001,2022-06-16_19h44.54.961,stroopExperiment,2022.1.4,60.00492040601222,
red,red,1,left,1,2,8,0,,,,,,,32.59992530000454,None,left,1,0.6192919999884907,32.59992530000454,None,Kyle,001,2022-06-16_19h44.54.961,stroopExperiment,2022.1.4,60.00492040601222,
red,green,0,down,1,3,9,1,,,,,,,33.73426450000261,None,down,1,0.821293599990895,33.73426450000261,None,Kyle,001,2022-06-16_19h44.54.961,stroopExperiment,2022.1.4,60.00492040601222,
blue,blue,1,right,1,4,10,4,,,,,,,35.068962900011684,None,right,1,0.4948235000047134,35.068962900011684,None,Kyle,001,2022-06-16_19h44.54.961,stroopExperiment,2022.1.4,60.00492040601222,
green,green,1,down,1,5,11,2,,,,,,,36.06996910000453,None,down,1,1.1662057000066852,36.06996910000453,None,Kyle,001,2022-06-16_19h44.54.961,stroopExperiment,2022.1.4,60.00492040601222,
green,green,1,down,2,0,12,2,,,,,,,37.738291900008335,None,down,1,0.3930901999992784,37.738291900008335,None,Kyle,001,2022-06-16_19h44.54.961,stroopExperiment,2022.1.4,60.00492040601222,
blue ,red,0,left,2,1,13,5,,,,,,,38.63942260001204,None,left,1,0.8443014999938896,38.63942260001204,None,Kyle,001,2022-06-16_19h44.54.961,stroopExperiment,2022.1.4,60.00492040601222,
green,blue,0,right,2,2,14,3,,,,,,,39.99049809999997,None,right,1,0.7015363999962574,39.99049809999997,None,Kyle,001,2022-06-16_19h44.54.961,stroopExperiment,2022.1.4,60.00492040601222,
blue,blue,1,right,2,3,15,4,,,,,,,41.20842890000495,None,right,1,0.3628119000059087,41.20842890000495,None,Kyle,001,2022-06-16_19h44.54.961,stroopExperiment,2022.1.4,60.00492040601222,
red,red,1,left,2,4,16,0,,,,,,,42.076050000003306,None,left,1,0.5754432999965502,42.076050000003306,None,Kyle,001,2022-06-16_19h44.54.961,stroopExperiment,2022.1.4,60.00492040601222,
red,green,0,down,2,5,17,1,,,,,,,43.16034080000827,None,down,1,0.611393200000748,43.16034080000827,None,Kyle,001,2022-06-16_19h44.54.961,stroopExperiment,2022.1.4,60.00492040601222,
green,blue,0,right,3,0,18,3,,,,,,,44.278164600007585,None,right,1,1.1020216999895638,44.278164600007585,None,Kyle,001,2022-06-16_19h44.54.961,stroopExperiment,2022.1.4,60.00492040601222,
blue ,red,0,left,3,1,19,5,,,,,,,45.896400300000096,None,down,0,1.923375499987742,45.896400300000096,None,Kyle,001,2022-06-16_19h44.54.961,stroopExperiment,2022.1.4,60.00492040601222,
blue,blue,1,right,3,2,20,4,,,,,,,48.332246400008444,None,right,1,2.255196899990551,48.332246400008444,None,Kyle,001,2022-06-16_19h44.54.961,stroopExperiment,2022.1.4,60.00492040601222,
red,red,1,left,3,3,21,0,,,,,,,51.10156000001007,None,left,1,1.6623943000013242,51.10156000001007,None,Kyle,001,2022-06-16_19h44.54.961,stroopExperiment,2022.1.4,60.00492040601222,
red,green,0,down,3,4,22,1,,,,,,,53.27022520000173,None,down,1,0.7890821000037249,53.27022520000173,None,Kyle,001,2022-06-16_19h44.54.961,stroopExperiment,2022.1.4,60.00492040601222,
green,green,1,down,3,5,23,2,,,,,,,54.57175090000965,None,down,1,0.5358065999898827,54.57175090000965,None,Kyle,001,2022-06-16_19h44.54.961,stroopExperiment,2022.1.4,60.00492040601222,
red,red,1,left,4,0,24,0,,,,,,,55.62279690000287,None,left,1,2.8846048999985214,55.62279690000287,None,Kyle,001,2022-06-16_19h44.54.961,stroopExperiment,2022.1.4,60.00492040601222,
red,green,0,down,4,1,25,1,,,,,,,59.00946530001238,None,down,1,1.0103094999940367,59.00946530001238,None,Kyle,001,2022-06-16_19h44.54.961,stroopExperiment,2022.1.4,60.00492040601222,
blue,blue,1,right,4,2,26,4,,,,,,,60.52747870000894,None,right,1,0.48456429998623207,60.52747870000894,None,Kyle,001,2022-06-16_19h44.54.961,stroopExperiment,2022.1.4,60.00492040601222,
blue ,red,0,left,4,3,27,5,,,,,,,61.52863200000138,None,left,1,0.7387516000017058,61.52863200000138,None,Kyle,001,2022-06-16_19h44.54.961,stroopExperiment,2022.1.4,60.00492040601222,
green,blue,0,right,4,4,28,3,,,,,,,62.77992110000923,None,right,1,3.071369799989043,62.77992110000923,None,Kyle,001,2022-06-16_19h44.54.961,stroopExperiment,2022.1.4,60.00492040601222,
green,green,1,down,4,5,29,2,,,,,,,66.36683710000943,None,down,1,1.2448373999941396,66.36683710000943,None,Kyle,001,2022-06-16_19h44.54.961,stroopExperiment,2022.1.4,60.00492040601222,
