cue_file,target_x,is_valid,trials.thisRepN,trials.thisTrialN,trials.thisN,trials.thisIndex,cue.started,cue.stopped,target.started,target.stopped,resp.x,resp.y,resp.leftButton,resp.midButton,resp.rightButton,resp.time,resp.clicked_name,resp.started,resp.stopped,feedbackTxt.started,feedbackTxt.stopped,participant,session,date,expName,psychopyVersion,frameRate,
C:/Users/kerry/Documents/Kyle Files/PsychoPyProjects/posnerFiles/images/arrow_right.png,-0.5,invalid,0,0,0,9,12.927834099988104,13.627703599995584,13.611219699989306,None,[-0.45277777],[-0.008333334],[1],[0],[0],[0.6341410000022734],['target'],0.7079588400520151,None,14.295032999987598,None,Kyle,001,2022-06-16_18h38.06.198,posner,2022.1.4,59.96688628107922,
C:/Users/kerry/Documents/Kyle Files/PsychoPyProjects/posnerFiles/images/arrow_left.png,-0.5,valid,0,1,1,2,15.279534399989643,15.97948889998952,15.963397799991071,None,[-0.60555553],[0.04537037],[1],[0],[0],[0.4520609000028344],['target'],0.710196679996443,None,16.430335999990348,None,Kyle,001,2022-06-16_18h38.06.198,posner,2022.1.4,59.96688628107922,
C:/Users/kerry/Documents/Kyle Files/PsychoPyProjects/posnerFiles/images/arrow_left.png,-0.5,valid,0,2,2,3,17.432113299990306,18.13217879999138,18.11505719998968,None,[-0.4611111],[0.010185185],[1],[0],[0],[0.318216499988921],['target'],0.707668779999949,None,18.44867769999837,None,Kyle,001,2022-06-16_18h38.06.198,posner,2022.1.4,59.96688628107922,
C:/Users/kerry/Documents/Kyle Files/PsychoPyProjects/posnerFiles/images/arrow_left.png,-0.5,valid,0,3,3,0,19.450231599999825,20.15042559998983,20.134261499988497,None,[-0.45462963],[-0.019444445],[1],[0],[0],[0.33432490000268444],['target'],0.7100797800230794,None,20.484033699991414,None,Kyle,001,2022-06-16_18h38.06.198,posner,2022.1.4,59.96688628107922,
C:/Users/kerry/Documents/Kyle Files/PsychoPyProjects/posnerFiles/images/arrow_right.png,0.5,valid,0,4,4,5,21.48590489999333,22.18568019999657,22.16960319998907,None,[0.43611112],[0.036111113],[1],[0],[0],[0.28392750000057276],['target'],0.7100610800116556,None,22.469796299992595,None,Kyle,001,2022-06-16_18h38.06.198,posner,2022.1.4,59.96688628107922,
C:/Users/kerry/Documents/Kyle Files/PsychoPyProjects/posnerFiles/images/arrow_left.png,0.5,invalid,0,5,5,8,23.471500899991952,24.171533199987607,24.15441999999166,None,[0.50648147],[0.048148148],[1],[0],[0],[0.5348217999999179],['target'],0.7098250800045207,None,24.704742199988686,None,Kyle,001,2022-06-16_18h38.06.198,posner,2022.1.4,59.96688628107922,
C:/Users/kerry/Documents/Kyle Files/PsychoPyProjects/posnerFiles/images/arrow_right.png,0.5,valid,0,6,6,7,25.706569799993304,26.406649199998355,26.390489099998376,None,[0.3888889],[0.017592592],[1],[0],[0],[0.2504774999979418],['target'],0.7105996800091816,None,26.65674589999253,None,Kyle,001,2022-06-16_18h38.06.198,posner,2022.1.4,59.96688628107922,
C:/Users/kerry/Documents/Kyle Files/PsychoPyProjects/posnerFiles/images/arrow_right.png,0.5,valid,0,7,7,6,27.658477099990705,28.358710699991207,28.342431899989606,None,[0.36851853],[0.018518519],[1],[0],[0],[0.28427789999113884],['target'],0.7096922799973981,None,28.64253589999862,None,Kyle,001,2022-06-16_18h38.06.198,posner,2022.1.4,59.96688628107922,
C:/Users/kerry/Documents/Kyle Files/PsychoPyProjects/posnerFiles/images/arrow_left.png,-0.5,valid,0,8,8,1,29.643974299993715,30.344315399997868,30.32726819999516,None,[-0.35277778],[-0.025925925],[1],[0],[0],[0.23417319999134634],['target'],0.7089042800071184,None,30.57736519999162,None,Kyle,001,2022-06-16_18h38.06.198,posner,2022.1.4,59.96688628107922,
C:/Users/kerry/Documents/Kyle Files/PsychoPyProjects/posnerFiles/images/arrow_right.png,0.5,valid,0,9,9,4,31.579192699995474,32.27902479999466,32.26303659999394,None,[0.37962964],[0.0074074073],[1],[0],[0],[0.20153940000454895],['target'],0.7107886800076813,None,32.47919849999016,None,Kyle,001,2022-06-16_18h38.06.198,posner,2022.1.4,59.96688628107922,
C:/Users/kerry/Documents/Kyle Files/PsychoPyProjects/posnerFiles/images/arrow_left.png,0.5,invalid,1,0,10,8,33.48096749999968,34.181526000000304,34.16433329999563,None,[0.5287037],[-0.0046296297],[1],[0],[0],[0.45244480000110343],['target'],0.7063825800141785,None,34.631865699993796,None,Kyle,001,2022-06-16_18h38.06.198,posner,2022.1.4,59.96688628107922,
C:/Users/kerry/Documents/Kyle Files/PsychoPyProjects/posnerFiles/images/arrow_left.png,-0.5,valid,1,1,11,2,35.63350929999433,36.333172300001024,36.316542999993544,None,[-0.35555556],[-0.024074074],[1],[0],[0],[0.3510829000006197],['target'],0.7089438800030621,None,36.6838635999884,None,Kyle,001,2022-06-16_18h38.06.198,posner,2022.1.4,59.96688628107922,
C:/Users/kerry/Documents/Kyle Files/PsychoPyProjects/posnerFiles/images/arrow_left.png,-0.5,valid,1,2,12,3,37.68504379999649,38.385784099999,38.36859600000025,None,[-0.35555556],[-0.026851851],[1],[0],[0],[0.3171266000135802],['target'],0.7094851800065953,None,38.70199309999589,None,Kyle,001,2022-06-16_18h38.06.198,posner,2022.1.4,59.96688628107922,
C:/Users/kerry/Documents/Kyle Files/PsychoPyProjects/posnerFiles/images/arrow_left.png,-0.5,valid,1,3,13,0,39.70372919998772,40.404055699997116,40.3877921999956,None,[-0.34166667],[-0.025],[1],[0],[0],[0.38324569999531377],['target'],0.7106774800049607,None,40.787599099989166,None,Kyle,001,2022-06-16_18h38.06.198,posner,2022.1.4,59.96688628107922,
C:/Users/kerry/Documents/Kyle Files/PsychoPyProjects/posnerFiles/images/arrow_right.png,0.5,valid,1,4,14,7,41.78917669999646,42.48924329999136,42.47318019998784,None,[0.48333332],[0.06759259],[1],[0],[0],[0.23368769999069627],['target'],0.7107622799958335,None,42.7232551999914,None,Kyle,001,2022-06-16_18h38.06.198,posner,2022.1.4,59.96688628107922,
C:/Users/kerry/Documents/Kyle Files/PsychoPyProjects/posnerFiles/images/arrow_right.png,0.5,valid,1,5,15,6,43.72506399999838,44.42505549998896,44.408125099987956,None,[0.36574075],[0.035185184],[1],[0],[0],[0.2512223000085214],['target'],0.7101567800127668,None,44.675268099992536,None,Kyle,001,2022-06-16_18h38.06.198,posner,2022.1.4,59.96688628107922,
C:/Users/kerry/Documents/Kyle Files/PsychoPyProjects/posnerFiles/images/arrow_right.png,0.5,valid,1,6,16,5,45.67689550000068,46.37697829998797,46.35993399999279,None,[0.42407408],[0.027777778],[1],[0],[0],[0.21748069999739528],['target'],0.7070235800201772,None,46.59373870000127,None,Kyle,001,2022-06-16_18h38.06.198,posner,2022.1.4,59.96688628107922,
C:/Users/kerry/Documents/Kyle Files/PsychoPyProjects/posnerFiles/images/arrow_right.png,-0.5,invalid,1,7,17,9,47.59544910000113,48.29560430000129,48.27843569999095,None,[-0.31388888],[-0.030555556],[1],[0],[0],[0.5679200000013225],['target'],0.7101147800131002,None,48.86216720000084,None,Kyle,001,2022-06-16_18h38.06.198,posner,2022.1.4,59.96688628107922,
C:/Users/kerry/Documents/Kyle Files/PsychoPyProjects/posnerFiles/images/arrow_left.png,-0.5,valid,1,8,18,1,49.86397049999505,50.5639397999912,50.547897600001306,None,[-0.31574073],[-0.0129629625],[1],[0],[0],[0.30111100000794977],['target'],0.7100011800066568,None,50.864118599987705,None,Kyle,001,2022-06-16_18h38.06.198,posner,2022.1.4,59.96688628107922,
C:/Users/kerry/Documents/Kyle Files/PsychoPyProjects/posnerFiles/images/arrow_right.png,0.5,valid,1,9,19,4,51.86593659999198,52.56593129999237,52.54988510000112,None,[0.4101852],[0.018518519],[1],[0],[0],[0.2176801999885356],['target'],0.7101532799861161,None,52.78273749999062,None,Kyle,001,2022-06-16_18h38.06.198,posner,2022.1.4,59.96688628107922,
